Folder: robinsonconolly

Note: README.md
# robinsonconolly
Raw data and R code as SI for Robinson/Conolly paper in Ontario Archaeology

File: xrf.csv
Sample,Period,Region,Site Name,Ti,Mn,Fe,Ni,Cu,Zn,Rb,Sr,Y,Zr,Nb,Ba,Pb,CaO,TiO2,MnO2
1,1,PL,JI-2,-1.38947,-0.518776,-1.63813,-0.957399,-1.1513,-0.628226,-0.0394157,0.81912,-0.849557,-0.698481,-0.63021,3.56663,0.992341,-1.73329,-1.31627,-0.454293
3,1,PL,JI-2,1.171,0.145364,1.07894,0.148549,-0.175758,2.29248,0.806649,0.64137,5.00903,0.974918,1.77468,-0.231039,0.829965,-0.218863,0.871902,0.0628709
5,1,PL,JI-2,-1.41928,-0.434097,-1.69382,-0.775466,-1.03949,-1.09986,-0.659339,0.258035,-0.596737,-0.231349,-0.213996,3.16857,0.586641,-0.931888,-0.456628,-0.480814
7,1,PL,JI-2,0.437704,-0.716623,0.856494,1.12028,-0.00648524,0.404265,-0.478655,-0.0380405,-0.793153,-1.04067,-0.977753,-1.22098,1.27481,-1.60474,-0.834348,-0.759287
9,1,PL,JI-2,-0.771327,0.425817,0.0293838,-0.745157,-0.291483,0.368602,0.284935,-0.498277,-0.0355379,-1.14315,-0.489239,0.162051,-1.37782,-1.29945,-0.89296,0.275041
11,1,PL,JI-2,0.320359,-0.201692,0.937718,0.947662,1.70793,0.069399,1.10994,-1.47056,0.811063,-0.979545,-0.612344,-0.809147,1.20111,0.775355,0.383472,-0.242123
13,1,PL,JI-2,2.47325,-0.0231487,0.673247,-0.0210156,0.533187,0.0291498,0.692703,0.418245,2.90163,1.10913,2.94906,-0.274012,0.00310093,1.10676,2.47395,-0.109517
15,1,PL,JI-2,-0.253614,-0.210842,-0.393073,-0.1676,-0.640816,0.824531,-0.9814,0.490257,-0.398169,-0.0641749,-1.02074,-0.225575,0.339935,1.08266,0.109951,-0.215602
17,1,PL,JI-2,0.276827,0.146577,0.554964,-0.154316,-0.717872,0.337899,-0.140768,0.568163,0.648613,-0.0637564,-0.0303147,0.425636,0.924201,0.612665,0.683043,0.102653
19,1,PL,JI-2,-0.620144,-0.261073,0.130002,-0.392744,0.133657,-1.62388,-0.176461,-1.06983,-0.4817,-0.11762,-0.946209,-1.54212,1.34585,-1.34765,-1.53769,-0.281905
21,1,PL,JI-2,0.0104656,0.461196,-0.186043,-0.597733,-0.925459,-1.23,-0.0255588,-0.137869,0.687727,0.835974,-0.382045,-0.886134,-1.02071,-1.07489,-1.31627,0.460689
23,1,PL,JI-2,-0.257227,-0.446316,-0.906557,-0.323269,-1.11361,-1.13934,-0.530645,-0.0119284,1.15671,1.93103,0.0556638,-1.05728,1.00512,-0.85453,-1.14694,-0.441032
25,1,PL,JI-2,0.131617,-0.913296,0.742085,-0.000707625,-0.993276,0.440011,-0.733224,-1.18035,-1.62584,-0.71384,-1.56788,-1.66838,1.30222,-1.66117,-1.27068,-0.878633
27,1,PL,JI-2,-0.451254,-0.434027,0.378504,0.388122,-0.864077,-0.375302,-0.647931,0.65147,0.151733,0.146703,-0.818079,-0.790964,0.438309,-1.05467,-0.945059,-0.507336
29,1,PL,JI-2,-1.42138,-0.286238,-0.971098,-0.795469,-1.19132,-0.679298,-0.517282,0.808446,-0.160718,0.616299,-0.0741414,-0.703126,-0.0953621,-1.41251,-1.19253,-0.308426
31,0,PL,CH-1,-0.0223108,-0.209567,-0.291075,-0.196993,0.00581316,-0.112289,0.228169,0.714369,-0.831268,-0.346089,0.0517557,1.8315,0.36812,-0.595759,-0.339405,-0.281905
33,0,PL,CH-1,0.162769,3.65151,1.08002,1.40459,0.65024,0.61812,-0.623662,-1.48495,-0.669432,-1.26435,-1.47743,-0.874984,-0.689788,-0.0115009,-1.02321,3.52389
35,0,PL,CH-1,0.421666,2.68136,0.735487,0.283452,-0.273136,0.538169,0.223276,-0.470014,0.101477,-0.342659,-0.00826173,0.456073,0.0415652,-0.628105,-0.573852,2.56913
37,0,PL,CH-1,1.00995,1.17927,1.11354,0.514704,0.26221,0.63188,0.415958,0.310531,-0.676886,-0.695973,-0.398515,0.795675,1.33259,0.243227,0.813291,1.04416
39,0,PL,CH-1,2.15642,2.05262,1.50922,0.671824,-0.0532296,0.980109,0.558778,2.23827,-0.228265,1.61084,-0.098461,2.75139,0.686218,0.176839,1.55599,2.09175
41,0,PL,CH-1,0.0968724,1.54032,-0.0695059,0.213748,-0.654433,0.320756,0.625501,-0.137795,-0.381955,0.0405005,-0.098461,1.93301,0.246883,0.636915,0.590762,1.56132
43,0,PL,CH-1,1.45085,0.648081,1.5326,1.28259,2.55198,0.664766,0.647742,-1.46523,-0.689335,-1.85032,-1.01975,0.679282,0.0272158,1.07699,1.0412,0.633077
45,0,PL,CH-1,0.0260594,-0.459864,-0.0947699,0.137402,-0.587633,0.206086,4.18408,-0.693712,-1.1504,-0.45624,2.05122,-0.133578,0.46655,0.776938,0.397716,-0.427772
47,0,PL,CH-1,-1.53865,-0.43045,-1.59072,-0.855095,-1.12204,-1.05529,-1.30948,2.23107,-0.843025,-0.183834,0.515733,0.574574,-0.851454,2.17717,0.204671,-0.427772
49,0,PL,CH-1,0.321256,0.547581,-0.489164,-0.244328,-0.721233,0.00541307,1.42618,-0.988847,-0.91987,-0.872861,-0.712654,0.480889,-0.192452,0.616912,0.719459,1.42871
51,0,RL,SCOTT,2.35983,-0.854723,2.4519,2.84747,1.60162,2.05954,0.171671,-0.364004,-1.64873,-1.43578,-1.03637,-0.683352,0.271235,0.880956,0.989126,-0.838851
53,0,RL,SCOTT,0.267259,-0.306016,0.735725,1.6738,1.63321,0.473047,-0.208853,-0.598377,0.0480817,-1.2217,-0.450716,-0.160747,-1.79349,0.818945,1.05425,-0.334948
55,0,RL,SCOTT,-1.07129,1.34622,0.801113,-0.488293,-0.690171,-1.08569,-1.52584,0.202242,0.410003,-0.789664,-0.912711,-0.819325,-1.10264,0.682923,-0.560827,1.07068
57,0,RL,SCOTT,-1.11792,1.84406,-0.804479,-1.02436,0.945236,-1.40475,-0.236276,-1.65921,-0.0757801,-1.76105,-0.65338,-0.3948,-0.928433,-0.47927,-0.0723965,2.26413
59,0,RL,SCOTT,0.708822,-0.816373,0.751184,0.557399,0.788589,-0.657738,-0.510198,0.0197918,0.142066,-0.70466,-1.7792,-1.34526,-1.75368,-0.121211,-1.14694,-0.573639
61,1,RL,RICH,-0.322493,-0.422509,0.552961,0.423063,0.338755,0.799165,-0.601008,-1.66378,0.631022,-0.830958,-0.5152,-1.2725,-2.17896,-1.63146,-1.66794,-0.772548
63,1,RL,RICH,0.223894,0.108997,0.427812,0.605935,0.771755,1.13896,0.346264,1.33571,0.741383,1.01686,-0.0713498,0.0337983,-0.559074,1.24702,0.83934,0.0761315
65,1,RL,RICH,3.36007,0.162938,2.53553,3.84535,4.54985,2.47593,-0.574875,-0.494103,-1.05767,-2.03138,-1.69294,-1.7025,-2.2098,1.46105,1.22357,0.0761315
67,1,RL,RICH,1.30641,-0.642474,1.43875,1.51293,2.35866,0.739796,-0.364563,0.286266,-0.815041,-1.93193,-0.943138,-1.01604,-1.54679,1.32103,1.45151,-0.759287
69,1,RL,RICH,-0.886717,-0.173898,-0.798069,0.465964,0.470218,-0.41673,-0.351396,0.0800298,0.396282,-0.328856,-0.115735,-0.0254436,0.200125,0.766937,0.526745,-0.268644
70,1,RL,RICH,0.0749047,0.369641,1.14183,0.442786,0.414373,4.6088,0.697213,-0.612132,0.39879,-0.103919,1.19817,-0.294577,-0.543953,-0.235904,1.01825,0.367865